File: packages/xraylarch/xraylarch-0.9.50.tar.gz/xraylarch-0.9.50/examples/xafsdata/cu_romanglass.xdi
# XDI/1.0  GSE/1.0
# Column.1: energy eV
# Column.2: mufluor
# Column.3: mutrans
# Column.4: ifluor # deadtime-corrected
# Column.5: ifluor_raw # not deadtime-corrected
# Column.6: i0
# Column.7: itrans
# Column.8: irefer
# Column.9: counttime sec
# Beamline.fluxestimate: 1.057e+11  ||  13XRM:ION:FluxOut.VAL
# Beamline.foe_slit_hpos: 0.5000  ||  13IDA:m5.VAL
# Beamline.foe_slit_hwid: 1.0000  ||  13IDA:m6.VAL
# Beamline.foe_slit_vpos: -0.2001  ||  13IDA:m7.VAL
# Beamline.foe_slit_vwid: 0.3000  ||  13IDA:m8.VAL
# Beamline.i0_sensitivity_number: 10  ||  13IDE:A1sens_num.VAL
# Beamline.i0_sensitivity_unit: nA/V  ||  13IDE:A1sens_unit.VAL
# Beamline.i1_sensitivity_number: 500  ||  13IDE:A2sens_num.VAL
# Beamline.i1_sensitivity_unit: nA/V  ||  13IDE:A2sens_unit.VAL
# Beamline.i2_sensitivity_number: 50  ||  13IDE:A3sens_num.VAL
# Beamline.i2_sensitivity_unit: pA/V  ||  13IDE:A3sens_unit.VAL
# Beamline.ssa_slit_hpos: 0  ||  13IDA:m69.VAL
# Beamline.ssa_slit_hwid: 0.0500  ||  13IDA:m70.VAL
# Beamline.ssa_slit_vpos: 1.1000  ||  13IDA:m71.VAL
# Beamline.ssa_slit_vwid: 0.3500  ||  13IDA:m72.VAL
# Beamline.name: 13-ID-E, GSECARS
# Facility.ring_current: 102.2  ||  S:SRcurrentAI.VAL
# Facility.ring_lifetime: 11.0  ||  S:SRlifeTimeHrsCC.VAL
# Facility.name: APS
# Facility.xray_source: 3.6 cm undulator
# Monochromator.dspacing: 3.13477  ||  13IDE:En:dspace.VAL
# Monochromator.energy: 9499.5  ||  13IDE:En:Energy.VAL
# Monochromator.height: 26.10000  ||  13IDE:En:height.VAL
# Monochromator.theta_offset: 17.54811  ||  13IDA:m65.OFF
# Monochromator.xtal2_pitch: -0.1140  ||  13IDA:m67.VAL
# Monochromator.xtal2_rol: 1.0200  ||  13IDA:m68.VAL
# Monochromator.xtal2_y: 13.3423  ||  13IDA:m66.VAL
# Monochromator.xtal2_y_off: 11.6000  ||  13IDA:m66.OFF
# Monochromator.name: Si(111), LN2 cooled
# Undulator.energy: 9.455  ||  ID13us:Energy.VAL
# Detectors.i0: 20cm ion chamber, He
# Detectors.ifluor: Si SDD Vortex ME-4, 4 elements
# Detectors.ifluor_electronics: Quantum Xspress3 3.1.10
# Detectorstage.x: 3000.0  ||  13IDE:m34.VAL
# Detectorstage.y: 71.401  ||  13IDE:m4.VAL
# Detectorstage.z: 55.0000  ||  13IDE:m19.VAL
# Samplestage.coarsex: 42.4458  ||  13XRM:m4.VAL
# Samplestage.coarsey: 17.9090  ||  13XRM:m5.VAL
# Samplestage.coarsez: 216.3153  ||  13XRM:m6.VAL
# Samplestage.finex: 0  ||  13XRM:m1.VAL
# Samplestage.finey: 0  ||  13XRM:m2.VAL
# Samplestage.theta: 0  ||  13XRM:m3.VAL
# Scan.end_time: 2017-06-23 05:43:10
# Scan.start_time: 2017-06-23 05:35:13
# Scanparameters.e0: 8979.000
# Scanparameters.edge: K
# Scanparameters.element: Cu
# Scanparameters.legend: Start, Stop, Step, K-space, Time
# Scanparameters.region1: -50.000,   -10.000,     2.000  False  1.00
# Scanparameters.region2: -10.000,    19.997,     0.100  False  1.00
# Scanparameters.region3: 2.291,    10.000,     0.050  True  1.00
# Scanparameters.scantype: xafs
# ///
# summed cu_ka fluorescence data from CuXAFS_GlassGT1_C.001
# Dead-time correction applied
#------------------------------------------------------------------------------
#     energy       mufluor       mutrans        ifluor    ifluor_raw            i0        itrans        irefer     counttime
   8928.64     0.5583660     4.10072      46562.14         44634         83390          1381        305421      0.999977
   8932     0.5696910     4.1086      48333.16         46297         84841          1394        305632     0.9999669
   8936     0.5690886     4.1038         48154         46127         84616          1397        305557     0.9999777
   8939.99     0.5818836     4.09814      48994.01         46943         84199          1398        305713     0.9999783
   8944     0.5886860     4.09556      49580.32         47496         84222          1402        305799     0.9999748
   8948     0.6041814     4.09255      50841.26         48704         84149          1405        305922     0.9999769
   8952     0.6149536     4.08795      51693.62         49522         84061          1410        305865     0.9999737
   8955.99     0.6346400     4.08493      53225.35         50991         83867          1411        305673     0.9999719
   8960     0.6620559     4.08124      55516.03         53184         83854          1416        305982      0.999976
   8964     0.6955459     4.0784      58281.88         55828         83793          1419        306201     0.9999748
   8967.76     0.7494492     4.07482      62706.42         60063         83670          1422        306165     0.9999768
   8969.16     0.7748391     4.07105      64269.03         61579         82945          1415        305690     0.9999701
   8969.35     0.7772707     4.07543      64845.36         62114         83427          1417        305645     0.9999772
   8969.56     0.7795470     4.08018       65483.5         62707         84002          1420        305651     0.9999747
   8969.75     0.7866932     4.08258      66289.13         63466         84263          1421        305540     0.9999753
   8969.96     0.7893686     4.07919      66102.52         63309         83741          1417        306044     0.9999783
   8970.16     0.7879107     4.08476      66536.69         63701         84447          1421        305536     0.9999777
   8970.37     0.8009283     4.08552      67734.51         64836         84570          1422        305743     0.9999722
   8970.56     0.8094066     4.08712      68754.23         65803         84944          1426        305770      0.999977
   8970.75     0.8085879     4.08423      68294.14         65378         84461          1422        305903     0.9999772
   8970.95     0.8225081     4.08341      69510.98         66534         84511          1424        305823     0.9999787
   8971.15     0.8187262     4.08527      69222.48         66266         84549          1422        306059     0.9999748
   8971.35     0.8210427     4.08284      69103.88         66157         84166          1419        306282     0.9999751
   8971.54     0.8342507     4.08515      70278.95         67285         84242          1417        305543      0.999977
   8971.74     0.8318670     4.08537      70242.02         67240         84439          1420        305988     0.9999792
   8971.95     0.8424682     4.08105      70680.55         67677         83897          1417        305964     0.9999752
   8972.15     0.8514251     4.07024      70065.47         67144         82292          1405        305581     0.9999758
   8972.35     0.8541300     4.0685      70065.99         67149         82032          1403        305420     0.9999745
   8972.56     0.8677280     4.06423      70878.63         67939         81683          1403        305180     0.9999794
   8972.75     0.8682617     4.06725      71288.63         68317         82105          1406        305491     0.9999806
   8972.95     0.8813521     4.07424      73182.19         70098         83034          1412        305665     0.9999748
   8973.15     0.8877836     4.08255      74541.86         71368         83964          1416        305806     0.9999766
   8973.35     0.8973499     4.08908      76106.04         72824         84812          1421        305420     0.9999667
   8973.55     0.9011875     4.09137      76607.24         73296         85007          1421        305471     0.9999847
   8973.75     0.9085156     4.09408       77711.7         74335         85537          1426        305628     0.9999795
   8973.96     0.9261701     4.09842      79789.55         76294         86150          1430        305926     0.9999765
   8974.15     0.9294939     4.10136      80480.23         76936         86585          1433        306133     0.9999769
   8974.36     0.9427485     4.09986      81392.19         77814         86335          1431        306088     0.9999758
   8974.55     0.9471511     4.09791      81441.73         77879         85986          1428        306176     0.9999847
   8974.75     0.9578866     4.09654      82251.81         78659         85868          1428        305937     0.9999701
   8974.95     0.9737002     4.09413      83525.95         79874         85782          1430        306316      0.999978
   8975.16     0.9849859     4.10317      85320.46         81557         86621          1431        306310     0.9999783
   8975.36     1.00118     4.10359      86699.42         82871         86597          1430        306288     0.9999759
   8975.56     1.00953     4.10136      87227.65         83379         86404          1430        306288      0.999977
   8975.75     1.03579     4.10434      89888.84         85902         86783          1432        306071     0.9999753
   8975.95     1.05047     4.10232      91105.91         87064         86729          1434        305772      0.999971
   8976.15     1.06574     4.1025      92382.26         88277         86684          1433        306261     0.9999712
   8976.35     1.0853     4.10447      94197.81         90004         86794          1432        306239     0.9999746
   8976.55     1.11305     4.10572      96727.21         92420         86903          1432        306395     0.9999813
   8976.74     1.13157     4.10839      98737.64         94318         87257          1434        306455     0.9999758
   8976.94     1.16613     4.10859      101986.1         97391         87457          1437        306343     0.9999769
   8977.16     1.19323     4.10768        103971         99303         87134          1433        306207     0.9999778
   8977.35     1.23778     4.10607      107755.1        102917         87055          1434        306497     0.9999759
   8977.56     1.2889     4.1054      112520.5        107434         87300          1439        306440     0.9999824
   8977.75     1.33071     4.10471      115606.8        110395         86876          1433        306335      0.999986
   8977.97     1.3767     4.10632      119460.3        114069         86773          1429        306560     0.9999778
   8978.15     1.43047     4.1061      123751.8        118175         86511          1425        305920     0.9999769
   8978.35     1.47202     4.10808      127956.9        122149         86926          1429        306076      0.999974
   8978.55     1.51279     4.10776      131274.3        125317         86776          1427        306320     0.9999772
   8978.75     1.54679     4.10921      134607.8        128468         87024          1429        306207     0.9999794
   8978.94     1.58666     4.10093        136269        130121         85884          1422        305882     0.9999782
   8979.15     1.62713     4.1017      140146.6        133797         86131          1425        305950     0.9999772
   8979.35     1.66471     4.10581      144478.5        137879         86789          1430        305950     0.9999821
   8979.56     1.71884     4.10588      149083.7        142253         86735          1429        305692     0.9999694
   8979.76     1.79218     4.10572      155636.2        148474         86842          1431        306317      0.999976
   8979.95     1.84951     4.10903      160472.6        153078         86765          1425        306250     0.9999705
   8980.17     1.94438     4.10769      167887.6        160147         86345          1420        306265      0.999968
   8980.36     2.07775     4.10527      178842.6        170577         86075          1419        305850     0.9999711
   8980.56     2.2362     4.10811      193571.8        184499         86563          1423        305756     0.9999771
   8980.76     2.42115     4.10828        209766        199839         86639          1424        305893     0.9999778
   8980.95     2.6546     4.10421      228574.7        217707         86105          1421        305600     0.9999831
   8981.16     2.93134     4.09972        251450        239383         85780          1422        305246     0.9999835
   8981.35     3.19071     4.10512      274212.5        260865         85941          1417        305820     0.9999806
   8981.55     3.56689     4.11092        310066        294546         86929          1425        306314     0.9999836
   8981.75     3.93647     4.11243      342228.6        324818         86938          1423        306066     0.9999772
   8981.94     4.33579     4.11278      375488.2        356140         86602          1417        305922     0.9999716
   8982.15     4.80269     4.10998      412416.8        390888         85872          1409        305472     0.9999772
   8982.35     5.39159     4.09687      452742.9        429077         83972          1396        305053     0.9999807
   8982.54     6.22653     4.08605      516484.6        488838         82949          1394        304969     0.9999771
   8982.74     6.97404     4.08452        573461        542109         82228          1384        305464     0.9999674
   8982.95     7.84215     4.0822      640099.9        604159         81623          1377        305661     0.9999726
   8983.16     8.78129     4.08639      719240.4        677291         81906          1376        305486     0.9999788
   8983.35     9.59133     4.08747      784724.3        737539         81816          1373        305358     0.9999763
   8983.56    10.5872     4.08291      859740.9        806584         81206          1369        305250      0.999986
   8983.76    11.127     4.08766      907889.1        850250         81593          1369        305382     0.9999758
   8983.96    11.5046     4.08545      933885.6        874176         81175          1365        305335     0.9999685
   8984.16    11.7647     4.08641      956611.7        894731         81312          1366        305253     0.9999849
   8984.36    11.8343     4.08776      964979.4        902284         81541          1368        305454      0.999977
   8984.55    11.7149     4.08404      951000.3        889647         81179          1367        305289     0.9999753
   8984.75    11.5363     4.0802      931555.7        872202         80750          1365        305345     0.9999752
   8984.95    10.9211     4.08413      884049.9        828818         80949          1363        305060     0.9999781
   8985.16    10.7513     4.08034      868285.1        814507         80761          1365        305540     0.9999833
   8985.35    10.4938     4.07992      847749.4        795744         80786          1366        304873     0.9999765
   8985.55    10.3375     4.08119        836193        785091         80889          1366        305084     0.9999763
   8985.75    10.3974     4.07601      837915.7        786808         80589          1368        304990     0.9999752
   8985.94    10.1581     4.07641      817161.5        767907         80444          1365        304964     0.9999776
   8986.15    10.1093     4.07974      817147.4        767689         80831          1367        305160     0.9999851
   8986.35    10.1751     4.07699      820202.9        770587         80609          1367        304966     0.9999694
   8986.55    10.259     4.07524      826729.7        776616         80586          1369        305158     0.9999762
   8986.75    10.2272     4.08151      826313.1        776115         80796          1364        305128     0.9999758
   8986.95    10.3039     4.07823      829793.3        779365         80532          1364        304864      0.999977
   8987.15    10.4056     4.08044      839838.3        788544         80710          1364        304917     0.9999753
   8987.35    10.5856     4.07822      858093.7        805103         81062          1373        305229     0.9999776
   8987.56    10.7046     4.07548      867252.1        813532         81017          1376        305108     0.9999754
   8987.75    10.7562     4.07777      869626.1        815698         80849          1370        305178     0.9999765
   8987.96    10.8289     4.08095      875084.6        820723         80810          1365        305192     0.9999775
   8988.15    10.9722     4.08157      889810.7        834010         81097          1369        305356     0.9999771
   8988.35    11.0715     4.08268        897558        841123         81069          1367        305412     0.9999681
   8988.56    11.1765     4.08336      904034.3        847123         80887          1363        305256     0.9999733
   8988.75    11.3256     4.07994        912286        854757         80551          1362        305504     0.9999793
   8988.95    11.4402     4.08417      925431.1        866620         80893          1362        305430     0.9999776
   8989.15    11.7409     4.07587      947435.3        886688         80695          1370        305623      0.999979
   8989.36    11.8875     4.08075      970996.8        907645         81682          1380        305718     0.9999737
   8989.55    11.9929     4.08901      982720.6        918162         81942          1373        305741     0.9999751
   8989.74    12.1494     4.09731       1008230        940643         82986          1379        305954     0.9999775
   8989.95    12.2999     4.10007       1021313        952453         83034          1376        305667     0.9999806
   8990.15    12.4838     4.10912       1049802        977653         84093          1381        305823     0.9999765
   8990.35    12.6818     4.11225       1072118        997500         84540          1384        306043     0.9999752
   8990.55    12.9062     4.11714       1096448       1019111         84955          1384        306216      0.999968
   8990.75    13.1765     4.11677       1120611       1040749         85046          1386        306141     0.9999782
   8990.95    13.4859     4.11215       1150699       1067650         85326          1397        306117      0.999983
   8991.15    13.7361     4.11984       1174324       1088512         85492          1389        306231     0.9999838
   8991.35    14.0523     4.1119       1186720       1100294         84450          1383        305870     0.9999759
   8991.54    14.3352     4.11129       1211612       1122319         84520          1385        305619     0.9999793
   8991.75    14.6874     4.11415       1235046       1143449         84089          1374        305934     0.9999845
   8991.95    15.0534     4.11575       1274318       1178031         84653          1381        305898     0.9999806
   8992.14    15.4297     4.11194       1294598       1196581         83903          1374        306092      0.999976
   8992.34    15.8359     4.11157       1325293       1223895         83689          1371        306150     0.9999763
   8992.55    16.2089     4.11665       1361437       1255623         83993          1369        305832     0.9999764
   8992.76    16.5456     4.11777       1392281       1282651         84148          1370        305955     0.9999778
   8992.95    16.8605     4.1073       1412202       1300438         83758          1378        305849     0.9999777
   8993.15    17.1452     4.10975       1434348       1319912         83659          1373        305598     0.9999769
   8993.35    17.4611     4.11833       1466921       1348348         84011          1367        305687      0.999969
   8993.55    17.7393     4.12234       1496295       1373726         84349          1367        305652     0.9999759
   8993.75    17.935     4.12       1513678       1388691         84398          1371        305616     0.9999766
   8993.94    18.1584     4.12333       1532021       1404764         84370          1366        305620     0.9999779
   8994.14    18.3562     4.11449       1529478       1403322         83322          1361        305154     0.9999783
   8994.34    18.5654     4.11681       1551643       1422522         83577          1362        305165     0.9999675
   8994.55    18.7308     4.11213       1556995       1427477         83125          1361        305407     0.9999829
   8994.75    18.9003     4.11004       1565512       1435260         82830          1359        305436     0.9999766
   8994.95    19.0578     4.11508       1587707       1454115         83310          1360        305580     0.9999784
   8995.15    19.2208     4.11545       1595980       1461335         83034          1355        305358     0.9999786
   8995.35    19.394     4.12114       1619554       1481558         83508          1355        305494     0.9999746
   8995.55    19.4816     4.11547       1621261       1483318         83220          1358        305561     0.9999679
   8995.76    19.5641     4.11765       1630475       1490993         83340          1357        306011      0.999977
   8995.95    19.6579     4.11366       1629363       1490460         82886          1355        305855     0.9999777
   8996.15    19.7413     4.12214       1651422       1508933         83653          1356        305840     0.9999792
   8996.35    19.7603     4.1166       1645087       1503662         83252          1357        306072     0.9999823
   8996.55    19.8064     4.11389       1649317       1507350         83272          1361        305773     0.9999753
   8996.75    19.8687     4.11885       1656616       1513748         83378          1356        306082     0.9999706
   8996.94    19.8962     4.11742       1655328       1512855         83198          1355        306279     0.9999778
   8997.15    19.9539     4.118       1657413       1514606         83062          1352        306083     0.9999783
   8997.36    19.898     4.11822       1658023       1514973         83326          1356        305790     0.9999751
   8997.54    19.9332     4.11815       1657163       1514170         83136          1353        305908     0.9999831
   8997.75    19.9394     4.11462       1654269       1512020         82965          1355        306198     0.9999772
   8997.95    19.9299     4.11627       1658668       1515771         83225          1357        306037     0.9999795
   8998.15    19.94     4.10871       1639726       1499845         82233          1351        305684     0.9999776
   8998.35    19.9055     4.11034       1641985       1501550         82489          1353        306142     0.9999757
   8998.55    19.9278     4.10724       1635095       1495974         82051          1350        305775     0.9999743
   8998.76    19.9889     4.11391       1648645       1507509         82478          1348        305599     0.9999776
   8999.05    20.0948     4.11549       1656317       1514144         82425          1345        305849     0.9999773
   9000.36    20.0415     4.10371       1632562       1494285         81459          1345        305734     0.9999733
   9002.2    19.7341     4.10407       1615274       1479237         81852          1351        305981       0.99998
   9004.14    19.0938     4.10928       1587306       1453577         83132          1365        306106     0.9999785
   9006.15    18.5727     4.10792       1544155       1415957         83141          1367        306554     0.9999824
   9008.23    18.0816     4.1106       1515073       1390497         83791          1374        306593     0.9999711
   9010.4    17.686     4.09682       1463780       1345904         82765          1376        305896     0.9999809
   9012.65    17.2729     4.1147       1471236       1350861         85176          1391        306811     0.9999705
   9014.96    16.9806     4.11969       1454624       1336007         85664          1392        306820     0.9999773
   9017.36    16.7009     4.11657       1423138       1308639         85213          1389        306718     0.9999751
   9019.84    16.4272     4.11961       1412166       1298331         85965          1397        306663      0.999976
   9022.38    16.2763     4.11295       1393883       1282534         85639          1401        306856     0.9999747
   9025.02    16.183     4.11125       1383529       1273391         85493          1401        307197     0.9999697
   9027.72    16.1879     4.10401       1376910       1268055         85058          1404        307249     0.9999787
   9030.51    16.2482     4.10227       1379632       1270396         84910          1404        307085     0.9999759
   9033.36    16.4662     4.09767       1389743       1279740         84400          1402        307277     0.9999753
   9036.31    16.6785     4.09014       1405084       1293393         84245          1410        307449     0.9999794
   9039.34    17.0244     4.08984       1420569       1307583         83443          1397        306983     0.9999767
   9042.43    17.3389     4.0843       1437793       1322884         82923          1396        307047     0.9999775
   9045.6    17.6878     4.076       1452519       1336381         82120          1394        306571     0.9999757
   9048.85    17.9535     4.06977       1465187       1347716         81610          1394        307005     0.9999751
   9052.17    18.1293     4.06396       1476229       1357574         81428          1399        306854     0.9999748
   9055.57    18.3045     4.05138       1473972       1356145         80525          1401        306543     0.9999694
   9059.05    18.3529     4.05524       1485704       1366194         80952          1403        306812     0.9999766
   9062.61    18.377     4.05888       1490948       1370595         81131          1401        306363     0.9999774
   9066.24    18.3334     4.0488       1479850       1361059         80719          1408        306926     0.9999747
   9069.95    18.2803     4.03953       1450520       1336350         79349          1397        306671     0.9999755
   9073.74    18.1054     4.04764       1459749       1343552         80625          1408        306658     0.9999779
   9077.62    18.0262     4.03815       1439645       1326577         79864          1408        306672      0.999977
   9081.56    17.8969     4.03815       1434381       1321669         80147          1413        306695     0.9999839
   9085.58    17.8228     4.0214       1419641       1308975         79653          1428        306790     0.9999752
   9089.69    17.7532     4.01619       1415608       1305288         79738          1437        306837     0.9999757
   9093.87    17.6595     4.02616       1407388       1298011         79696          1422        307029     0.9999755
   9098.11    17.6465     4.01584       1397794       1289861         79211          1428        307201     0.9999787
   9102.45    17.706     4.01434       1400400       1292205         79092          1428        307123     0.9999782
   9106.86    17.748     4.00807       1400814       1292496         78928          1434        307537       0.99997
   9111.34    17.8313     3.99662       1399133       1291431         78465          1442        307221     0.9999755
   9115.9    17.8531     4.0002       1406843       1297990         78801          1443        307266     0.9999759
   9120.56    17.9961     3.99226       1409815       1301056         78340          1446        307167     0.9999739
   9125.27    17.9765     3.99302       1424941       1313470         79267          1462        307661     0.9999782
   9130.07    18.0607     3.99128       1435973       1322939         79508          1469        307743     0.9999762
   9134.94    18.1516     3.98658       1426661       1315380         78597          1459        308021     0.9999781
   9139.88    18.2016     3.98135       1423130       1312421         78187          1459        308001     0.9999758
   9144.92    18.2677     3.97271       1420863       1310916         77780          1464        308327     0.9999835
   9150.02    18.3274     3.9576       1411793       1303256         77032          1472        308223     0.9999662
   9155.21    18.3563     3.95593       1414534       1305603         77060          1475        308138     0.9999767
   9160.47    18.3767     3.9505       1408446       1300503         76643          1475        308120     0.9999797
   9165.8    18.4093     3.94438       1404242       1296902         76279          1477        308461     0.9999765
   9171.22    18.3913     3.93908       1408682       1300828         76595          1491        308441     0.9999724
   9176.72    18.3626     3.92327       1377908       1274565         75039          1484        308364     0.9999713
   9182.29    18.2362     3.94897       1411625       1302567         77408          1492        308231     0.9999854
   9187.93    18.2075     3.94461       1413608       1304023         77639          1503        308805     0.9999813
   9193.66    18.193     3.94186       1417981       1307603         77941          1513        308917     0.9999776
   9199.46    18.1932     3.9231       1391655       1285386         76493          1513        308606     0.9999773
   9205.34    18.2128     3.91106       1394662       1288054         76576          1533        308747     0.9999714
   9211.29    18.2613     3.90148       1375116       1271625         75302          1522        308516     0.9999759
   9217.32    18.2702     3.89848       1377060       1273335         75372          1528        309035      0.999976
   9223.44    18.3154     3.88429       1364587       1262807         74505          1532        308893     0.9999789
   9229.63    18.3264     3.8836       1361798       1260399         74308          1529        308919     0.9999843
   9235.9    18.3276     3.87918       1361194       1259730         74270          1535        309723      0.999974
   9242.25    18.3541     3.87834       1368222       1265931         74546          1542        309865     0.9999759
   9248.67    18.3759     3.86429       1355993       1255410         73792          1548        310020     0.9999757
   9255.16    18.4214     3.8528       1356843       1256148         73656          1563        310166     0.9999787
   9261.74    18.4493     3.8411       1339658       1241687         72613          1559        309883     0.9999757
   9268.39    18.4932     3.84048       1345453       1246859         72754          1563        310043     0.9999751
   9275.12    18.5149     3.83133       1346716       1247799         72737          1577        310298     0.9999785
   9281.93    18.4963     3.82956       1348100       1248900         72885          1583        310754     0.9999754
   9288.82    18.5175     3.81868       1336721       1239043         72187          1585        311106      0.999974
   9295.77    18.54     3.80193       1304494       1211554         70361          1571        310485      0.999971
   9302.82    18.5981     3.78139       1286874       1196818         69194          1577        310405     0.9999767
   9309.94    18.6313     3.76512       1270782       1182969         68207          1580        310921     0.9999764
   9317.13    18.6152     3.74981       1259097       1172962         67638          1591        310445      0.999976
   9324.41    18.6836     3.74198       1254657       1169303         67153          1592        310584     0.9999754
   9331.76    18.6454     3.73468       1244546       1160338         66748          1594        310648     0.9999758
   9339.18    18.6871     3.71742       1232134       1149719         65935          1602        310684     0.9999781
   9346.69    18.7053     3.71064       1236474       1153520         66103          1617        311112     0.9999784
   9354.27    18.7252     3.70058       1215548       1135470         64915          1604        310966     0.9999721